Folder: Friedman-Kinetics-TGA/data (part 2)

File: c25.csv
Time,Unsubtracted Weight,Baseline Weight,Program Temperature,Sample Temperature,Approx. Gas Flow,Unsubtracted Delta T,Baseline Delta T,Unsubtracted Heat Flow,Baseline Heat Flow,Heat Flow Calibration,Unsubstracted Microvolt,R25 Diagnostic Signal,
0.000000,10.9363,0.000000,25.0521,25.27,30,-0.043516,0.000000,20,0.000000,1.000000,-0.057458,-1.748000,
0.389583,10.9308,0.000000,34.7396,25.71,30,-0.057209,0.000000,19.805,0.000000,1.000000,-0.075669,-2.302000,
0.779167,10.9422,0.000000,44.4792,29.53,30,-0.213406,0.000000,17.5534,0.000000,1.000000,-0.286142,-8.705000,
1.168750,10.93,0.000000,54.2188,36.49,30,-0.369581,0.000000,15.1957,0.000000,1.000000,-0.507429,-15.437,
1.558333,10.887,0.000000,63.9583,45.57,30,-0.489216,0.000000,13.2484,0.000000,1.000000,-0.691440,-21.035,
1.947917,10.8115,0.000000,73.6979,55.84,30,-0.645502,0.000000,10.6255,0.000000,1.000000,-0.940175,-28.602,
2.337500,10.7194,0.000000,83.4375,66.2,30,-0.758187,0.000000,8.580904,0.000000,1.000000,-1.135626,-34.548,
2.727083,10.6358,0.000000,93.1771,76.27,30,-0.757364,0.000000,8.318087,0.000000,1.000000,-1.163369,-35.392,
3.116667,10.5708,0.000000,102.917,85.97,30,-0.664981,0.000000,9.597951,0.000000,1.000000,-1.044770,-31.784,
3.506250,10.5235,0.000000,112.656,95.33,30,-0.551055,0.000000,11.319,0.000000,1.000000,-0.883538,-26.879,
3.895833,10.4927,0.000000,122.396,104.46,30,-0.450971,0.000000,12.8822,0.000000,1.000000,-0.736539,-22.407,
4.285417,10.4724,0.000000,132.135,113.49,30,-0.376157,0.000000,14.0676,0.000000,1.000000,-0.624910,-19.011,
4.675000,10.4615,0.000000,141.875,122.5,30,-0.327454,0.000000,14.8355,0.000000,1.000000,-0.552725,-16.815,
5.064583,10.4547,0.000000,151.615,131.59,30,-0.303468,0.000000,15.1884,0.000000,1.000000,-0.519986,-15.819,
5.454167,10.4508,0.000000,161.354,140.79,30,-0.296299,0.000000,15.2509,0.000000,1.000000,-0.514989,-15.667,
5.843750,10.4486,0.000000,171.094,150.14,30,-0.300559,0.000000,15.1099,0.000000,1.000000,-0.529518,-16.109,
6.233333,10.4464,0.000000,180.833,159.62,30,-0.310250,0.000000,14.8694,0.000000,1.000000,-0.553678,-16.844,
6.622917,10.4447,0.000000,190.573,169.25,30,-0.320896,0.000000,14.6101,0.000000,1.000000,-0.579712,-17.636,
7.012500,10.4423,0.000000,200.312,178.96,30,-0.330559,0.000000,14.3685,0.000000,1.000000,-0.604102,-18.378,
7.402083,10.4399,0.000000,210.052,188.73,30,-0.336940,0.000000,14.1893,0.000000,1.000000,-0.622510,-18.938,
7.791667,10.4373,0.000000,219.792,198.53,30,-0.340171,0.000000,14.0716,0.000000,1.000000,-0.634968,-19.317,
8.181250,10.4333,0.000000,229.531,208.36,30,-0.340718,0.000000,14.008,0.000000,1.000000,-0.642167,-19.536,
8.570833,10.4281,0.000000,239.271,218.18,30,-0.340956,0.000000,13.9533,0.000000,1.000000,-0.648478,-19.728,
8.960417,10.4211,0.000000,249.01,227.99,30,-0.342035,0.000000,13.8849,0.000000,1.000000,-0.656104,-19.96,
9.350000,10.4109,0.000000,258.75,237.79,30,-0.345996,0.000000,13.7616,0.000000,1.000000,-0.669055,-20.354,
9.739583,10.3978,0.000000,268.49,247.57,30,-0.346290,0.000000,13.713,0.000000,1.000000,-0.674709,-20.526,
10.1292,10.384,0.000000,278.229,257.33,30,-0.340109,0.000000,13.7963,0.000000,1.000000,-0.667412,-20.304,
10.5188,10.3666,0.000000,287.969,267.08,30,-0.331618,0.000000,13.9297,0.000000,1.000000,-0.655151,-19.931,
10.9083,10.3428,0.000000,297.708,276.82,30,-0.323792,0.000000,14.0532,0.000000,1.000000,-0.643778,-19.585,
11.2979,10.305,0.000000,307.448,286.55,30,-0.318588,0.000000,14.1266,0.000000,1.000000,-0.637269,-19.387,
11.6875,10.2459,0.000000,317.188,296.28,30,-0.321392,0.000000,14.0385,0.000000,1.000000,-0.646572,-19.67,
12.0771,10.1466,0.000000,326.927,306.01,30,-0.340835,0.000000,13.6092,0.000000,1.000000,-0.689435,-20.974,
12.4667,9.974250,0.000000,336.667,315.75,30,-0.402426,0.000000,12.3074,0.000000,1.000000,-0.818257,-24.893,
12.8562,9.635600,0.000000,346.406,325.54,30,-0.582651,0.000000,8.536860,0.000000,1.000000,-1.190586,-36.22,
13.2458,8.949135,0.000000,356.146,335.42,30,-0.962135,0.000000,0.590631,0.000000,1.000000,-1.975347,-60.094,
13.6354,7.686834,0.000000,365.885,345.47,30,-1.545945,0.000000,-11.6845,0.000000,1.000000,-3.188482,-97,
14.025,5.693773,0.000000,375.625,355.69,30,-2.141774,0.000000,-24.3039,0.000000,1.000000,-4.437085,-134.985,
14.4146,3.443016,0.000000,385.365,365.91,30,-2.211737,0.000000,-25.9483,0.000000,1.000000,-4.602196,-140.008,
14.8042,2.055903,0.000000,395.104,375.78,30,-1.420412,0.000000,-9.401318,0.000000,1.000000,-2.968214,-90.299,
15.1937,1.728163,0.000000,404.844,385.16,30,-0.520688,0.000000,9.573217,0.000000,1.000000,-1.092367,-33.232,
15.5833,1.634991,0.000000,414.583,394.38,30,-0.192127,0.000000,16.5276,0.000000,1.000000,-0.404543,-12.307,
15.9729,1.572366,0.000000,424.323,403.7,30,-0.108706,0.000000,18.2951,0.000000,1.000000,-0.229702,-6.988000,
16.3625,1.522180,0.000000,434.062,413.11,30,-0.084952,0.000000,18.7963,0.000000,1.000000,-0.180133,-5.480000,
16.7521,1.478976,0.000000,443.802,422.62,30,-0.081449,0.000000,18.8656,0.000000,1.000000,-0.173296,-5.272000,
17.1417,1.445591,0.000000,453.542,432.21,30,-0.081930,0.000000,18.8495,0.000000,1.000000,-0.174906,-5.321000,
17.5312,1.411988,0.000000,463.281,441.86,30,-0.088027,0.000000,18.7118,0.000000,1.000000,-0.188548,-5.736000,
17.9208,1.383403,0.000000,473.021,451.56,30,-0.089973,0.000000,18.6633,0.000000,1.000000,-0.193347,-5.882000,
18.3104,1.356346,0.000000,482.76,461.3,30,-0.095294,0.000000,18.5409,0.000000,1.000000,-0.205443,-6.250000,
18.7,1.332126,0.000000,492.5,471.06,30,-0.106982,0.000000,18.2786,0.000000,1.000000,-0.231379,-7.039000,
19.0896,1.309651,0.000000,502.24,480.83,30,-0.120598,0.000000,17.9721,0.000000,1.000000,-0.261653,-7.960000,
19.4792,1.288049,0.000000,511.979,490.61,30,-0.134933,0.000000,17.6477,0.000000,1.000000,-0.293669,-8.934000,
19.8687,1.268629,0.000000,521.719,500.38,30,-0.149196,0.000000,17.3226,0.000000,1.000000,-0.325718,-9.909000,
20.2583,1.251173,0.000000,531.458,510.15,30,-0.162879,0.000000,17.0078,0.000000,1.000000,-0.356683,-10.851,
20.6479,1.234371,0.000000,541.198,519.92,30,-0.178425,0.000000,16.6493,0.000000,1.000000,-0.391920,-11.923,
21.0375,1.219533,0.000000,550.938,529.69,30,-0.196533,0.000000,16.2308,0.000000,1.000000,-0.433009,-13.173,
21.4271,1.205350,0.000000,560.677,539.46,30,-0.216287,0.000000,15.7722,0.000000,1.000000,-0.477976,-14.541,
21.8167,1.191603,0.000000,570.417,549.21,30,-0.236857,0.000000,15.2915,0.000000,1.000000,-0.525015,-15.972,
22.2063,1.178293,0.000000,580.156,558.97,30,-0.260525,0.000000,14.737,0.000000,1.000000,-0.579219,-17.621,
22.5958,1.165637,0.000000,589.896,568.73,30,-0.288102,0.000000,14.0893,0.000000,1.000000,-0.642463,-19.545,
22.9854,1.153854,0.000000,599.635,578.48,30,-0.318787,0.000000,13.3653,0.000000,1.000000,-0.713037,-21.692,
23.375,1.142290,0.000000,609.375,588.24,30,-0.353241,0.000000,12.549,0.000000,1.000000,-0.792486,-24.109,
23.7646,1.131379,0.000000,619.115,598,30,-0.382194,0.000000,11.8515,0.000000,1.000000,-0.860036,-26.164,
24.1542,1.120688,0.000000,628.854,607.75,30,-0.413704,0.000000,11.0887,0.000000,1.000000,-0.933765,-28.407,
24.5437,1.109559,0.000000,638.594,617.51,30,-0.452610,0.000000,10.1476,0.000000,1.000000,-1.024686,-31.173,
24.9333,1.099522,0.000000,648.333,627.28,30,-0.497019,0.000000,9.069701,0.000000,1.000000,-1.128657,-34.336,
25.3229,1.089921,0.000000,658.073,637.05,30,-0.544524,0.000000,7.909072,0.000000,1.000000,-1.240320,-37.733,
25.7125,1.081193,0.000000,667.812,646.82,30,-0.591644,0.000000,6.746014,0.000000,1.000000,-1.351785,-41.124,
26.1021,1.072901,0.000000,677.552,656.6,30,-0.635923,0.000000,5.637973,0.000000,1.000000,-1.457432,-44.338,
26.4917,1.065046,0.000000,687.292,666.37,30,-0.677060,0.000000,4.592774,0.000000,1.000000,-1.556505,-47.352,
26.8813,1.057627,0.000000,697.031,676.14,30,-0.716775,0.000000,3.570114,0.000000,1.000000,-1.652916,-50.285,
27.2708,1.050645,0.000000,706.771,685.91,30,-0.756830,0.000000,2.528087,0.000000,1.000000,-1.750707,-53.26,
27.6604,1.043880,0.000000,716.51,695.68,30,-0.796070,0.000000,1.493881,0.000000,1.000000,-1.847216,-56.196,
28.05,1.037552,0.000000,726.25,705.47,30,-0.859908,0.000000,-0.146198,0.000000,1.000000,-2.001578,-60.892,
28.4396,1.032097,0.000000,735.99,715.29,30,-0.963297,0.000000,-2.765042,0.000000,1.000000,-2.249260,-68.427,
28.8292,1.027297,0.000000,745.729,725.1,30,-1.035906,0.000000,-4.662324,0.000000,1.000000,-2.426402,-73.816,
29.2188,1.021405,0.000000,755.469,734.89,30,-1.089403,0.000000,-6.112697,0.000000,1.000000,-2.559727,-77.872,
29.6083,1.016605,0.000000,765.208,744.68,30,-1.133486,0.000000,-7.348547,0.000000,1.000000,-2.671685,-81.278,
29.9979,1.011586,0.000000,774.948,754.45,30,-1.171643,0.000000,-8.452671,0.000000,1.000000,-2.770298,-84.278,
30.3875,1.006131,0.000000,784.688,764.22,30,-1.205210,0.000000,-9.456676,0.000000,1.000000,-2.858622,-86.965,
30.7771,1.001549,0.000000,794.427,773.98,30,-1.237069,0.000000,-10.4311,0.000000,1.000000,-2.943396,-89.544,
31.1667,0.996530,0.000000,804.167,783.74,30,-1.266822,0.000000,-11.3655,0.000000,1.000000,-3.023634,-91.985,
31.5562,0.991730,0.000000,813.906,793.5,30,-1.293543,0.000000,-12.2359,0.000000,1.000000,-3.097068,-94.219,
31.9458,0.987802,0.000000,823.646,803.25,30,-1.317154,0.000000,-13.039,0.000000,1.000000,-3.163434,-96.238,
32.3354,0.983220,0.000000,833.385,813,30,-1.337764,0.000000,-13.7767,0.000000,1.000000,-3.222931,-98.048,
32.725,0.979074,0.000000,843.125,822.74,30,-1.355000,0.000000,-14.4379,0.000000,1.000000,-3.274571,-99.619,
33.1146,0.974274,0.000000,852.865,832.48,30,-1.369871,0.000000,-15.0476,0.000000,1.000000,-3.320722,-101.023,
33.5042,0.969910,0.000000,862.604,842.21,30,-1.383172,0.000000,-15.6256,0.000000,1.000000,-3.363257,-102.317,
33.8937,0.964673,0.000000,872.344,851.95,30,-1.396576,0.000000,-16.2156,0.000000,1.000000,-3.406219,-103.624,
34.2833,0.959000,0.000000,882.083,861.68,30,-1.410236,0.000000,-16.8218,0.000000,1.000000,-3.449970,-104.955,
34.6729,0.953108,0.000000,891.823,871.42,30,-1.424955,0.000000,-17.4661,0.000000,1.000000,-3.496483,-106.37,
35.0625,0.947653,0.000000,900,881.15,15.4,-1.438833,0.000000,-18.098,0.000000,1.000000,-3.541089,-107.727,
35.4521,0.952672,0.000000,900,889.53,10.1,-1.463824,0.000000,-19.0026,0.000000,1.000000,-3.611728,-109.876,
35.8417,0.946344,0.000000,900,894.33,10.2,-1.545796,0.000000,-21.3629,0.000000,1.000000,-3.819440,-116.195,
36.0063,0.942634,0.000000,900,895.93,10.2,-1.560432,0.000000,-21.8085,0.000000,1.000000,-3.857439,-117.351,