Folder: Friedman-Kinetics-TGA/data

Note: README.txt
For the implementation of the Friedman kinetic analysis code, please consider the following:

1.- Edit the sections marked as 'Edit---' to update the file names and the corresponding heating rates for each dataset.

2.- When running the program, you will be prompted in the console to enter the desired smoothing level. 
For smoothing the first derivative, a value between 21 and 51 is recommended. For the second smoothing step, applied
to the natural logarithm, values of 301 or higher are advisable.

3.- Upon completion, the code will generate five output files:

		data_friedman.txt: Contains the data points used for the Friedman linear fitting.

		resultsfriedman.txt: Includes the calculated activation energies for each degree of conversion.

		weightvstemp.txt: Provides the mass loss curves as a function of temperature.

		dtgvstemp.txt: Contains the first derivative curves (DTG) of mass versus temperature.

		kinetics.jpg: A summary image of the overall kinetic analysis.

File: c15.csv
Time,Unsubtracted Weight,Baseline Weight,Program Temperature,Sample Temperature,Approx. Gas Flow,Unsubtracted Delta T,Baseline Delta T,Unsubtracted Heat Flow,Baseline Heat Flow,Heat Flow Calibration,Unsubstracted Microvolt,R25 Diagnostic Signal,
0.000000,10.0801,0.000000,25.0312,24.79,30,0.364385,0.000000,19.988,0.000000,1.000000,0.480639,14.622,
0.620833,10.0735,0.000000,34.3125,26.19,30,0.287927,0.000000,18.9265,0.000000,1.000000,0.381730,11.613,
1.241667,10.0696,0.000000,43.625,31.67,30,0.358236,0.000000,20.0182,0.000000,1.000000,0.484386,14.736,
1.862500,10.0303,0.000000,52.9375,40.27,30,0.542753,0.000000,22.8984,0.000000,1.000000,0.755473,22.983,
2.483333,9.944356,0.000000,62.25,49.86,30,0.708001,0.000000,25.6427,0.000000,1.000000,1.015285,30.887,
3.104167,9.842019,0.000000,71.5625,59.27,30,0.774970,0.000000,26.9564,0.000000,1.000000,1.141542,34.728,
3.725000,9.752556,0.000000,80.875,68.39,30,0.722467,0.000000,26.3829,0.000000,1.000000,1.090066,33.162,
4.345833,9.689496,0.000000,90.1875,77.32,30,0.616887,0.000000,24.8908,0.000000,1.000000,0.951318,28.941,
4.966667,9.647601,0.000000,99.5,86.16,30,0.524557,0.000000,23.5419,0.000000,1.000000,0.825455,25.112,
5.587500,9.617925,0.000000,108.812,95.03,30,0.458650,0.000000,22.5778,0.000000,1.000000,0.735586,22.378,
6.208333,9.596105,0.000000,118.125,104.03,30,0.411861,0.000000,21.9,0.000000,1.000000,0.672572,20.461,
6.829167,9.582358,0.000000,127.438,113.18,30,0.377503,0.000000,21.4093,0.000000,1.000000,0.627145,19.079,
7.450000,9.570794,0.000000,136.75,122.46,30,0.349258,0.000000,21.005,0.000000,1.000000,0.589771,17.942,
8.070833,9.562502,0.000000,146.062,131.85,30,0.328995,0.000000,20.7257,0.000000,1.000000,0.564197,17.164,
8.691667,9.555738,0.000000,155.375,141.28,30,0.321024,0.000000,20.6557,0.000000,1.000000,0.558576,16.993,
9.312500,9.549846,0.000000,164.688,150.71,30,0.321200,0.000000,20.7273,0.000000,1.000000,0.566531,17.235,
9.933333,9.545482,0.000000,174,160.11,30,0.325335,0.000000,20.8683,0.000000,1.000000,0.581158,17.68,
10.5542,9.540682,0.000000,183.312,169.48,30,0.330343,0.000000,21.0232,0.000000,1.000000,0.597134,18.166,
11.175,9.536536,0.000000,192.625,178.81,30,0.336648,0.000000,21.2006,0.000000,1.000000,0.615311,18.719,
11.7958,9.532390,0.000000,201.938,188.12,30,0.343614,0.000000,21.3894,0.000000,1.000000,0.634607,19.306,
12.4167,9.528026,0.000000,211.25,197.41,30,0.351236,0.000000,21.5898,0.000000,1.000000,0.655052,19.928,
13.0375,9.522134,0.000000,220.562,206.7,30,0.360854,0.000000,21.8281,0.000000,1.000000,0.679212,20.663,
13.6583,9.515370,0.000000,229.875,215.99,30,0.372345,0.000000,22.103,0.000000,1.000000,0.706955,21.507,
14.2792,9.505769,0.000000,239.188,225.28,30,0.386234,0.000000,22.4254,0.000000,1.000000,0.739366,22.493,
14.9,9.493768,0.000000,248.5,234.58,30,0.398636,0.000000,22.7194,0.000000,1.000000,0.769049,23.396,
15.5208,9.481331,0.000000,257.812,243.88,30,0.405906,0.000000,22.9117,0.000000,1.000000,0.788837,23.998,
16.1417,9.466275,0.000000,267.125,253.2,30,0.411847,0.000000,23.0768,0.000000,1.000000,0.805963,24.519,
16.7625,9.447946,0.000000,276.438,262.5,30,0.418640,0.000000,23.258,0.000000,1.000000,0.824666,25.088,
17.3833,9.422634,0.000000,285.75,271.8,30,0.426847,0.000000,23.4672,0.000000,1.000000,0.846098,25.74,
18.0042,9.385103,0.000000,295.062,281.1,30,0.437874,0.000000,23.7333,0.000000,1.000000,0.873118,26.562,
18.625,9.330553,0.000000,304.375,290.4,30,0.453903,0.000000,24.1018,0.000000,1.000000,0.910197,27.69,
19.2458,9.244581,0.000000,313.688,299.68,30,0.478196,0.000000,24.6409,0.000000,1.000000,0.964072,29.329,
19.8667,9.094021,0.000000,323,308.92,30,0.533087,0.000000,25.8125,0.000000,1.000000,1.080238,32.863,
20.4875,8.782646,0.000000,332.312,318.08,30,0.670867,0.000000,28.705,0.000000,1.000000,1.366051,41.558,
21.1083,8.127385,0.000000,341.625,327.05,30,0.959727,0.000000,34.7527,0.000000,1.000000,1.963250,59.726,
21.7292,6.900214,0.000000,350.938,335.89,30,1.371960,0.000000,43.4124,0.000000,1.000000,2.818848,85.755,
22.35,5.013418,0.000000,360.25,344.85,30,1.704713,0.000000,50.4713,0.000000,1.000000,3.517422,107.007,
22.9708,2.964061,0.000000,369.562,354.35,30,1.591819,0.000000,48.232,0.000000,1.000000,3.298402,100.344,
23.5917,1.747147,0.000000,378.875,364.51,30,0.932078,0.000000,34.4628,0.000000,1.000000,1.939550,59.005,
24.2125,1.469375,0.000000,388.188,374.48,30,0.394883,0.000000,23.1813,0.000000,1.000000,0.825028,25.099,
24.8333,1.384931,0.000000,397.5,383.84,30,0.289207,0.000000,20.9687,0.000000,1.000000,0.606502,18.451,
25.4542,1.326234,0.000000,406.812,393.02,30,0.282551,0.000000,20.847,0.000000,1.000000,0.594668,18.091,
26.075,1.279321,0.000000,416.125,402.22,30,0.297583,0.000000,21.187,0.000000,1.000000,0.628493,19.12,
26.6958,1.240044,0.000000,425.438,411.46,30,0.316686,0.000000,21.6162,0.000000,1.000000,0.671126,20.417,
27.3167,1.205568,0.000000,434.75,420.73,30,0.339790,0.000000,22.1339,0.000000,1.000000,0.722503,21.98,
27.9375,1.177420,0.000000,444.062,430.02,30,0.366536,0.000000,22.7332,0.000000,1.000000,0.781934,23.788,
28.5583,1.151672,0.000000,453.375,439.32,30,0.394603,0.000000,23.3649,0.000000,1.000000,0.844520,25.692,
29.1792,1.127670,0.000000,462.688,448.61,30,0.423231,0.000000,24.0126,0.000000,1.000000,0.908652,27.643,
29.8,1.106286,0.000000,472,457.9,30,0.452324,0.000000,24.6745,0.000000,1.000000,0.974131,29.635,
30.4208,1.086648,0.000000,481.312,467.18,30,0.483080,0.000000,25.3771,0.000000,1.000000,1.043554,31.747,
31.0417,1.067883,0.000000,490.625,476.46,30,0.516623,0.000000,26.1454,0.000000,1.000000,1.119387,34.054,
31.6625,1.050426,0.000000,499.938,485.74,30,0.551795,0.000000,26.9545,0.000000,1.000000,1.199165,36.481,
32.2833,1.034934,0.000000,509.25,495,30,0.588955,0.000000,27.8131,0.000000,1.000000,1.283709,39.053,
32.9042,1.019442,0.000000,518.562,504.27,30,0.628357,0.000000,28.7274,0.000000,1.000000,1.373611,41.788,
33.525,1.005040,0.000000,527.875,513.53,30,0.669245,0.000000,29.6812,0.000000,1.000000,1.467261,44.637,
34.1458,0.990639,0.000000,537.188,522.8,30,0.711724,0.000000,30.6775,0.000000,1.000000,1.564920,47.608,
34.7667,0.976892,0.000000,546.5,532.06,30,0.755645,0.000000,31.7136,0.000000,1.000000,1.666294,50.692,
35.3875,0.963364,0.000000,555.812,541.32,30,0.801468,0.000000,32.8004,0.000000,1.000000,1.772434,53.921,
36.0083,0.949399,0.000000,565.125,550.58,30,0.846212,0.000000,33.8716,0.000000,1.000000,1.876767,57.095,
36.6292,0.936306,0.000000,574.438,559.84,30,0.892097,0.000000,34.9773,0.000000,1.000000,1.984222,60.364,
37.25,0.923869,0.000000,583.75,569.1,30,0.938658,0.000000,36.1076,0.000000,1.000000,2.093781,63.697,
37.8708,0.911213,0.000000,593.062,578.36,30,0.984382,0.000000,37.2286,0.000000,1.000000,2.202091,66.992,
38.4917,0.898994,0.000000,602.375,587.62,30,1.028560,0.000000,38.3242,0.000000,1.000000,2.307541,70.2,
39.1125,0.886338,0.000000,611.688,596.89,30,1.069299,0.000000,39.351,0.000000,1.000000,2.405858,73.191,
39.7333,0.873901,0.000000,621,606.16,30,1.105954,0.000000,40.2935,0.000000,1.000000,2.495530,75.919,
40.3542,0.862772,0.000000,630.312,615.44,30,1.137937,0.000000,41.1374,0.000000,1.000000,2.575143,78.341,
40.975,0.850117,0.000000,639.625,624.72,30,1.166532,0.000000,41.9112,0.000000,1.000000,2.647525,80.543,
41.5958,0.840297,0.000000,648.938,634.01,30,1.192768,0.000000,42.6385,0.000000,1.000000,2.714976,82.595,
42.2167,0.828296,0.000000,658.25,643.3,30,1.216888,0.000000,43.3243,0.000000,1.000000,2.777990,84.512,
42.8375,0.817823,0.000000,667.562,652.59,30,1.237319,0.000000,43.9311,0.000000,1.000000,2.832917,86.183,
43.4583,0.808003,0.000000,676.875,661.91,30,1.206658,0.000000,43.3387,0.000000,1.000000,2.770857,84.295,
44.0792,0.798621,0.000000,686.188,671.24,30,1.191252,0.000000,43.1048,0.000000,1.000000,2.743574,83.465,
44.7,0.789020,0.000000,695.5,680.54,30,1.200456,0.000000,43.4569,0.000000,1.000000,2.772960,84.359,
45.3208,0.779637,0.000000,704.812,689.82,30,1.216828,0.000000,43.9856,0.000000,1.000000,2.819111,85.763,
45.9417,0.771564,0.000000,714.125,699.1,30,1.235375,0.000000,44.5736,0.000000,1.000000,2.870587,87.329,
46.5625,0.763927,0.000000,723.438,708.38,30,1.256406,0.000000,45.2292,0.000000,1.000000,2.928144,89.08,
47.1833,0.755635,0.000000,732.75,717.66,30,1.279599,0.000000,45.9457,0.000000,1.000000,2.991092,90.995,
47.8042,0.747780,0.000000,742.062,726.93,30,1.303617,0.000000,46.6915,0.000000,1.000000,3.056341,92.98,
48.425,0.740361,0.000000,751.375,736.21,30,1.328166,0.000000,47.4598,0.000000,1.000000,3.123200,95.014,
49.0458,0.732724,0.000000,760.688,745.48,30,1.354390,0.000000,48.2795,0.000000,1.000000,3.194399,97.18,
49.6667,0.725523,0.000000,770,754.76,30,1.380946,0.000000,49.118,0.000000,1.000000,3.266781,99.382,
50.2875,0.718322,0.000000,779.312,764.04,30,1.409410,0.000000,50.0151,0.000000,1.000000,3.344093,101.734,
50.9083,0.711122,0.000000,788.625,773.31,30,1.436385,0.000000,50.8865,0.000000,1.000000,3.418283,103.991,
51.5292,0.704357,0.000000,797.938,782.59,30,1.462373,0.000000,51.7448,0.000000,1.000000,3.490533,106.189,
52.15,0.698248,0.000000,807.25,791.87,30,1.488724,0.000000,52.6239,0.000000,1.000000,3.564033,108.425,
52.7708,0.691265,0.000000,816.562,801.15,30,1.513326,0.000000,53.4704,0.000000,1.000000,3.633719,110.545,
53.3917,0.684501,0.000000,825.875,810.43,30,1.537591,0.000000,54.3199,0.000000,1.000000,3.702945,112.651,
54.0125,0.677518,0.000000,835.188,819.72,30,1.560366,0.000000,55.143,0.000000,1.000000,3.768917,114.658,
54.6333,0.669663,0.000000,844.5,829,30,1.582985,0.000000,55.9736,0.000000,1.000000,3.834823,116.663,
55.2542,0.661808,0.000000,853.812,838.28,30,1.606007,0.000000,56.8267,0.000000,1.000000,3.902012,118.707,
55.875,0.654825,0.000000,863.125,847.56,30,1.628092,0.000000,57.6675,0.000000,1.000000,3.967228,120.691,
56.4958,0.645006,0.000000,872.438,856.84,30,1.649530,0.000000,58.5033,0.000000,1.000000,4.031129,122.635,
57.1167,0.636278,0.000000,881.75,866.11,30,1.672214,0.000000,59.3845,0.000000,1.000000,4.098350,124.68,
57.7375,0.627114,0.000000,891.062,875.39,30,1.694614,0.000000,60.2713,0.000000,1.000000,4.165144,126.712,
58.3583,0.617076,0.000000,900,884.66,29.5,1.718213,0.000000,61.2035,0.000000,1.000000,4.235159,128.842,
58.9792,0.620131,0.000000,900,891.81,10.2,1.890707,0.000000,66.117,0.000000,1.000000,4.670502,142.086,
59.3375,0.612276,0.000000,900,894.14,10.2,1.925330,0.000000,67.1426,0.000000,1.000000,4.759385,144.79,

File: c20.csv
Time,Unsubtracted Weight,Baseline Weight,Program Temperature,Sample Temperature,Approx. Gas Flow,Unsubtracted Delta T,Baseline Delta T,Unsubtracted Heat Flow,Baseline Heat Flow,Heat Flow Calibration,Unsubstracted Microvolt,R25 Diagnostic Signal,
0.000000,10.7183,0.000000,25.0417,24.89,30,-0.026374,0.000000,20,0.000000,1.000000,-0.034777,-1.058000,
0.483333,10.7111,0.000000,34.6667,25.83,30,-0.060363,0.000000,19.517,0.000000,1.000000,-0.079876,-2.430000,
0.966667,10.7142,0.000000,44.3333,30.7,30,-0.245529,0.000000,16.8363,0.000000,1.000000,-0.330550,-10.056,
1.450000,10.691,0.000000,54,38.86,30,-0.475553,0.000000,13.3499,0.000000,1.000000,-0.657912,-20.015,
1.933333,10.6319,0.000000,63.6667,48.85,30,-0.578275,0.000000,11.587,0.000000,1.000000,-0.825291,-25.107,
2.416667,10.5475,0.000000,73.3333,59.07,30,-0.619626,0.000000,10.705,0.000000,1.000000,-0.910591,-27.702,
2.900000,10.46,0.000000,83,68.98,30,-0.626798,0.000000,10.3585,0.000000,1.000000,-0.945631,-28.768,
3.383333,10.3915,0.000000,92.6667,78.48,30,-0.559076,0.000000,11.2507,0.000000,1.000000,-0.863421,-26.267,
3.866667,10.3408,0.000000,102.333,87.65,30,-0.467939,0.000000,12.5926,0.000000,1.000000,-0.738051,-22.453,
4.350000,10.3057,0.000000,112,96.64,30,-0.387395,0.000000,13.8208,0.000000,1.000000,-0.622872,-18.949,
4.833333,10.2832,0.000000,121.667,105.58,30,-0.329541,0.000000,14.7104,0.000000,1.000000,-0.539412,-16.41,
5.316667,10.2695,0.000000,131.333,114.61,30,-0.293857,0.000000,15.2481,0.000000,1.000000,-0.489185,-14.882,
5.800000,10.2616,0.000000,141,123.78,30,-0.277388,0.000000,15.467,0.000000,1.000000,-0.469233,-14.275,
6.283333,10.2557,0.000000,150.667,133.13,30,-0.273166,0.000000,15.4771,0.000000,1.000000,-0.469200,-14.274,
6.766667,10.2518,0.000000,160.333,142.63,30,-0.279088,0.000000,15.3077,0.000000,1.000000,-0.486391,-14.797,
7.250000,10.2487,0.000000,170,152.27,30,-0.288106,0.000000,15.0817,0.000000,1.000000,-0.509072,-15.487,
7.733333,10.2461,0.000000,179.667,162.01,30,-0.296301,0.000000,14.8704,0.000000,1.000000,-0.530406,-16.136,
8.216667,10.2422,0.000000,189.333,171.8,30,-0.301046,0.000000,14.724,0.000000,1.000000,-0.545526,-16.596,
8.700000,10.2389,0.000000,199,181.58,30,-0.303091,0.000000,14.6303,0.000000,1.000000,-0.555552,-16.901,
9.183333,10.235,0.000000,208.667,191.35,30,-0.302468,0.000000,14.5902,0.000000,1.000000,-0.560384,-17.048,
9.666667,10.2313,0.000000,218.333,201.09,30,-0.299623,0.000000,14.5963,0.000000,1.000000,-0.560713,-17.058,
10.15,10.2258,0.000000,228,210.8,30,-0.296244,0.000000,14.6165,0.000000,1.000000,-0.559628,-17.025,
10.6333,10.2184,0.000000,237.667,220.49,30,-0.294728,0.000000,14.6039,0.000000,1.000000,-0.561699,-17.088,
11.1167,10.2093,0.000000,247.333,230.16,30,-0.296636,0.000000,14.5266,0.000000,1.000000,-0.570048,-17.342,
11.6,10.1973,0.000000,257,239.81,30,-0.297941,0.000000,14.4629,0.000000,1.000000,-0.577050,-17.555,
12.0833,10.1829,0.000000,266.667,249.46,30,-0.294893,0.000000,14.4877,0.000000,1.000000,-0.575373,-17.504,
12.5667,10.168,0.000000,276.333,259.11,30,-0.289413,0.000000,14.5639,0.000000,1.000000,-0.568635,-17.299,
13.05,10.1475,0.000000,286,268.75,30,-0.284583,0.000000,14.6298,0.000000,1.000000,-0.562849,-17.123,
13.5333,10.1191,0.000000,295.667,278.4,30,-0.281998,0.000000,14.6527,0.000000,1.000000,-0.561239,-17.074,
14.0167,10.0748,0.000000,305.333,288.06,30,-0.285287,0.000000,14.5577,0.000000,1.000000,-0.571166,-17.376,
14.5,10.0072,0.000000,315,297.72,30,-0.296577,0.000000,14.2993,0.000000,1.000000,-0.597134,-18.166,
14.9833,9.898315,0.000000,324.667,307.39,30,-0.324409,0.000000,13.6998,0.000000,1.000000,-0.656696,-19.978,
15.4667,9.701060,0.000000,334.333,317.08,30,-0.403382,0.000000,12.04,0.000000,1.000000,-0.820755,-24.969,
15.95,9.273384,0.000000,344,326.84,30,-0.632998,0.000000,7.243448,0.000000,1.000000,-1.294261,-39.374,
16.4333,8.397083,0.000000,353.667,336.72,30,-1.073415,0.000000,-1.979135,0.000000,1.000000,-2.205082,-67.083,
16.9167,6.851337,0.000000,363.333,346.78,30,-1.641607,0.000000,-13.9424,0.000000,1.000000,-3.387680,-103.06,
17.4,4.661894,0.000000,373,356.95,30,-2.030411,0.000000,-22.2318,0.000000,1.000000,-4.208731,-128.038,
17.8833,2.632394,0.000000,382.667,366.96,30,-1.723801,0.000000,-15.9358,0.000000,1.000000,-3.588784,-109.178,
18.3667,1.730345,0.000000,392.333,376.48,30,-0.855232,0.000000,2.293066,0.000000,1.000000,-1.787851,-54.39,
18.85,1.555347,0.000000,402,385.63,30,-0.325284,0.000000,13.4729,0.000000,1.000000,-0.682565,-20.765,
19.3333,1.485958,0.000000,411.667,394.81,30,-0.203915,0.000000,16.0332,0.000000,1.000000,-0.429426,-13.064,
19.8167,1.429007,0.000000,421.333,404.12,30,-0.185498,0.000000,16.4124,0.000000,1.000000,-0.392019,-11.926,
20.3,1.380348,0.000000,431,413.56,30,-0.186623,0.000000,16.3754,0.000000,1.000000,-0.395766,-12.04,
20.7833,1.339763,0.000000,440.667,423.1,30,-0.194018,0.000000,16.2034,0.000000,1.000000,-0.412859,-12.56,
21.2667,1.301359,0.000000,450.333,432.72,30,-0.203218,0.000000,15.9913,0.000000,1.000000,-0.433897,-13.2,
21.75,1.267320,0.000000,460,442.39,30,-0.214237,0.000000,15.7385,0.000000,1.000000,-0.458944,-13.962,
22.2333,1.235680,0.000000,469.667,452.09,30,-0.226064,0.000000,15.4665,0.000000,1.000000,-0.485865,-14.781,
22.7167,1.207532,0.000000,479.333,461.8,30,-0.237533,0.000000,15.2004,0.000000,1.000000,-0.512162,-15.581,
23.2,1.180039,0.000000,489,471.51,30,-0.249941,0.000000,14.9119,0.000000,1.000000,-0.540628,-16.447,
23.6833,1.155382,0.000000,498.667,481.21,30,-0.265127,0.000000,14.5605,0.000000,1.000000,-0.575274,-17.501,
24.1667,1.132907,0.000000,508.333,490.91,30,-0.283578,0.000000,14.1348,0.000000,1.000000,-0.617218,-18.777,
24.65,1.111959,0.000000,518,500.61,30,-0.306559,0.000000,13.606,0.000000,1.000000,-0.669285,-20.361,
25.1333,1.092976,0.000000,527.667,510.3,30,-0.331190,0.000000,13.0366,0.000000,1.000000,-0.725265,-22.064,
25.6167,1.075520,0.000000,537.333,519.99,30,-0.357815,0.000000,12.4187,0.000000,1.000000,-0.785944,-23.91,
26.1,1.059373,0.000000,547,529.68,30,-0.388370,0.000000,11.7082,0.000000,1.000000,-0.855631,-26.03,
26.5833,1.044753,0.000000,556.667,539.38,30,-0.420837,0.000000,10.9493,0.000000,1.000000,-0.929952,-28.291,
27.0667,1.030788,0.000000,566.333,549.07,30,-0.451139,0.000000,10.2329,0.000000,1.000000,-0.999901,-30.419,
27.55,1.017914,0.000000,576,558.76,30,-0.485946,0.000000,9.408938,0.000000,1.000000,-1.080271,-32.864,
28.0333,1.005258,0.000000,585.667,568.45,30,-0.525464,0.000000,8.471232,0.000000,1.000000,-1.171619,-35.643,
28.5167,0.993476,0.000000,595.333,578.15,30,-0.571458,0.000000,7.378151,0.000000,1.000000,-1.277990,-38.879,
29,0.982129,0.000000,605,587.85,30,-0.624131,0.000000,6.122983,0.000000,1.000000,-1.399974,-42.59,
29.4833,0.971437,0.000000,614.667,597.56,30,-0.685420,0.000000,4.659024,0.000000,1.000000,-1.542075,-46.913,
29.9667,0.960745,0.000000,624.333,607.29,30,-0.755812,0.000000,2.972127,0.000000,1.000000,-1.705575,-51.887,
30.45,0.952453,0.000000,634,617.02,30,-0.833712,0.000000,1.096049,0.000000,1.000000,-1.887055,-57.408,
30.9333,0.942853,0.000000,643.667,626.77,30,-0.916656,0.000000,-0.914959,0.000000,1.000000,-2.081093,-63.311,
31.4167,0.934779,0.000000,653.333,636.52,30,-1.004202,0.000000,-3.052787,0.000000,1.000000,-2.286799,-69.569,
31.9,0.926269,0.000000,663,646.27,30,-1.095012,0.000000,-5.288145,0.000000,1.000000,-2.501216,-76.092,
32.3833,0.919287,0.000000,672.667,656.02,30,-1.188707,0.000000,-7.613912,0.000000,1.000000,-2.723555,-82.856,
32.8667,0.911650,0.000000,682.333,665.77,30,-1.282980,0.000000,-9.977292,0.000000,1.000000,-2.948590,-89.702,
33.35,0.906195,0.000000,692,675.52,30,-1.377568,0.000000,-12.373,0.000000,1.000000,-3.175728,-96.612,
33.8333,0.900085,0.000000,701.667,685.26,30,-1.470728,0.000000,-14.7602,0.000000,1.000000,-3.400960,-103.464,
34.3167,0.894193,0.000000,711.333,695,30,-1.562463,0.000000,-17.1396,0.000000,1.000000,-3.624285,-110.258,
34.8,0.889393,0.000000,721,704.74,30,-1.652322,0.000000,-19.5004,0.000000,1.000000,-3.844619,-116.961,
35.2833,0.884374,0.000000,730.667,714.48,30,-1.740190,0.000000,-21.8401,0.000000,1.000000,-4.061666,-123.564,
35.7667,0.879792,0.000000,740.333,724.22,30,-1.826769,0.000000,-24.176,0.000000,1.000000,-4.277036,-130.116,
36.25,0.874992,0.000000,750,733.96,30,-1.911571,0.000000,-26.4962,0.000000,1.000000,-4.489547,-136.581,
36.7333,0.870628,0.000000,759.667,743.7,30,-1.993186,0.000000,-28.7662,0.000000,1.000000,-4.695845,-142.857,
37.2167,0.866482,0.000000,769.333,753.44,30,-2.071861,0.000000,-30.9917,0.000000,1.000000,-4.896457,-148.96,
37.7,0.861463,0.000000,779,763.17,30,-2.148336,0.000000,-33.1906,0.000000,1.000000,-5.093058,-154.941,
38.1833,0.856881,0.000000,788.667,772.91,30,-2.224130,0.000000,-35.4008,0.000000,1.000000,-5.289199,-160.908,
38.6667,0.852299,0.000000,798.333,782.64,30,-2.298606,0.000000,-37.6069,0.000000,1.000000,-5.483367,-166.815,
39.15,0.847716,0.000000,808,792.37,30,-2.373303,0.000000,-39.8479,0.000000,1.000000,-5.679180,-172.772,
39.6333,0.842261,0.000000,817.667,802.1,30,-2.447146,0.000000,-42.0974,0.000000,1.000000,-5.874071,-178.701,
40.1167,0.838988,0.000000,827.333,811.82,30,-2.519195,0.000000,-44.3314,0.000000,1.000000,-6.065742,-184.532,
40.6,0.832660,0.000000,837,821.54,30,-2.589799,0.000000,-46.5591,0.000000,1.000000,-6.254980,-190.289,
41.0833,0.828296,0.000000,846.667,831.25,30,-2.659605,0.000000,-48.797,0.000000,1.000000,-6.443298,-196.018,
41.5667,0.822841,0.000000,856.333,840.97,30,-2.726384,0.000000,-50.9879,0.000000,1.000000,-6.625271,-201.554,
42.05,0.815641,0.000000,866,850.68,30,-2.787097,0.000000,-53.0505,0.000000,1.000000,-6.793406,-206.669,
42.5333,0.810404,0.000000,875.667,860.38,30,-2.835588,0.000000,-54.8191,0.000000,1.000000,-6.932483,-210.9,
43.0167,0.803203,0.000000,885.333,870.08,30,-2.867442,0.000000,-56.1706,0.000000,1.000000,-7.031425,-213.91,
43.5,0.795566,0.000000,895,879.76,30,-2.877009,0.000000,-56.9437,0.000000,1.000000,-7.075899,-215.263,
43.9833,0.792511,0.000000,900,889.39,10,-2.861171,0.000000,-57.0406,0.000000,1.000000,-7.057656,-214.708,
44.4667,0.792075,0.000000,900,895.52,10.2,-2.951540,0.000000,-59.8317,0.000000,1.000000,-7.293866,-221.894,
44.7542,0.786620,0.000000,900,897.94,10.2,-2.946019,0.000000,-59.82,0.000000,1.000000,-7.285517,-221.64,